LinearAcc_x =[3.5820394 3.9504628 3.3154683 4.2141604 4.759308 4.3955 -0.008296013 -0.20966434 -0.8977699 -1.1062031 -1.4634495 -1.2271538 -0.22432518 -0.7165127 -0.93319225 -0.7939615 -0.7520952 -0.2150135 -0.844059 -1.1031666 -0.69040585 -0.78839016 -1.0523396 -1.0420885 -0.6940832 -1.1152611 -1.4093304 -0.83058167 -0.6851587 -0.70574665 -1.0845413 -0.72640896 -0.8822298 -0.73710155 -0.9489641 -1.1572456 -0.68880653 -0.79862785 -0.8504305 -0.70303154 -0.41103363 -0.9856787 -0.675807 -0.543005 -0.8233156 -0.9217558 -0.9136944 -0.8891983 -1.0852566 -0.98168755 -1.2325315 -1.2161007 -0.6931305 -1.0421515 -0.9171095 -1.2502956 -1.1392937 -0.8374262 -0.94888496 -1.0893879 -1.8009729 -3.024562 -4.747842 -5.866889 5.444092 11.213932 18.313644 18.229773 18.025343 8.006799 2.3146982 -0.8309107 -6.230023 -8.869156 -15.301211 -19.04688 -21.23346 -17.464947 -17.08032 -14.194321 -11.545822 -1.5279255 16.078405 19.047724 18.456005 8.107899 3.4199114 -2.0351458 -6.2192616 -7.121265 -10.962988 -14.7441435 -17.423489 -16.503601 -12.432905 -12.918001 -16.648283 -19.290327 -18.223492 -19.173203 -15.072572 4.2314253 19.074986 21.874735 10.8952675 1.6946311 -6.309671 -6.6574454 -5.3248973 -12.823946 -14.957976 -17.439808 -15.962889 -16.448566 -16.826254 -19.421741 -17.83221 -14.634914 -8.132009 -2.649983 7.0862107 11.947027 15.300505 13.793391 7.7323155 -4.177272 -6.041371 -4.180078 -5.917776 -18.584522 -19.431084 -19.664072 -11.665657 -8.650373 -8.07496 1.2684474 1.9977779 7.1325088 10.47035 11.661933 11.248877 13.968811 12.651784 11.089317 14.28304 14.700079 11.399729 7.681473 7.5747595 6.906314 5.6339626 4.7839627 5.123167 5.4029436 5.310067 5.3656473 5.1101446 5.240099 5.3404875 5.31975 4.455987 5.460331 5.9945993 4.479975 5.499211 5.8330135 4.0657163 4.006139 4.6929517 
];
LinearAcc_y =[-5.435117 -5.3165183 -5.238564 -5.2725897 -6.225677 -6.0166993 0.13452864 -0.22704077 -0.54094636 -0.3299032 -0.49442655 -0.38844836 -0.15856445 0.012425721 0.022056341 -0.25559974 0.17952102 -0.72144383 0.46003884 0.2137512 0.28465253 -0.027873814 0.054874778 0.22829187 -0.20060492 -0.20993137 0.23629808 0.047286987 -0.24969149 -0.30280793 -0.1526277 -0.27210474 0.10490227 -0.056885242 -0.1274364 -0.2284975 0.21684694 -0.1409707 -0.063610315 -0.058541298 -0.059793234 -0.36050713 -0.19372654 0.009867668 0.050512552 0.22190773 0.08471811 0.1923995 -0.107287526 0.09804046 0.0026375055 -0.01000309 -0.046860814 0.04363382 -0.061412334 0.6504147 0.38809717 0.08664358 -0.109231055 -0.03816676 0.09818417 0.32228667 -0.37982318 0.7691051 1.8127007 2.398255 2.453003 2.0785604 0.8956721 -10.800933 -18.859686 -24.870846 -31.908588 -31.717314 -24.320261 -19.911491 -17.604702 -20.63684 -21.234795 -23.262142 -21.863214 -19.66857 0.6101978 3.7028751 2.5884924 -9.533141 -15.98529 -23.558296 -30.72905 -34.936916 -30.504791 -25.843733 -22.376953 -18.150623 -16.070122 -15.812535 -13.585301 -13.447752 -14.523056 -16.039284 -17.976786 -10.49658 3.3331003 4.750021 -9.05558 -20.250862 -30.440628 -34.079865 -35.80519 -27.223385 -23.964832 -20.689419 -19.778877 -14.399973 -16.478107 -16.582499 -15.445511 -20.069778 -22.34735 -18.023823 -9.137468 -5.701442 -3.852715 -7.6100054 -15.349269 -29.110937 -34.174145 -35.985214 -33.04465 -18.34816 -16.050085 -15.561067 -11.646242 -8.739911 -7.8722963 -2.1464844 0.5809405 -3.9206722 1.6843855 3.4843116 0.46588862 -2.058877 -1.4127362 -2.5323384 -5.0651975 -4.8822484 -4.600224 -4.232271 -4.8360157 -4.906133 -4.96725 -4.6126733 -3.9854932 -3.7783716 -3.7880344 -3.658808 -3.3342843 -3.1859574 -3.3766038 -3.2581744 -3.2364886 -3.2090373 -3.30318 -3.2831557 -3.344452 -3.6311107 -3.527259 -3.2869606 -3.3051074 
];
LinearAcc_z =[9.301073 9.736578 9.54435 9.052257 9.14974 9.191623 -0.3005159 -0.62389064 0.15545344 -0.6655309 -0.17085147 -0.7710078 -0.007242441 -0.37421155 -0.6520405 -0.268003 -0.5103967 -1.0476047 0.6026944 0.044832468 0.023007154 0.53620243 0.4829563 0.30975807 0.08160865 0.39744973 -0.35450804 -0.3849461 -0.44352347 -0.2696613 0.0075110197 -0.065538645 -0.34379113 -0.11951387 0.12986171 0.1261369 -0.32122278 -0.13885152 -0.3194195 -0.34595335 -0.22000706 -0.10495329 0.08524275 0.014546394 0.105363965 0.051560998 -0.15665424 0.03704059 -0.119069815 0.010447741 0.1813209 0.13241827 -0.28525752 0.028602958 0.22963786 -1.143686 -1.1790744 0.69781184 0.4207181 -0.09072161 -0.022667795 0.53395253 2.5765367 5.0534377 16.020452 10.9553995 3.9912581 -10.066852 -14.847438 -8.662335 -5.703031 -3.6321876 -0.777869 4.851245 1.2872282 6.233516 6.256009 4.152652 7.439439 16.555109 17.972496 17.99947 17.001 16.3167 15.283494 -18.36563 -24.331312 -22.715675 -20.999146 -18.086721 -10.47637 1.7824744 3.302795 1.2203693 0.25916123 3.4699295 4.871863 3.549024 9.577138 13.775612 16.333754 16.179283 15.205034 13.73498 -1.2673783 -26.226038 -24.57667 -23.180977 -16.558481 -3.4992323 -5.185238 -2.7951357 -4.350062 -6.3330326 -2.1857107 3.3341336 6.130429 14.124856 14.835953 14.98304 14.112472 13.028787 12.031851 -8.663365 -15.626925 -25.96406 -24.48705 -23.405756 -17.896996 -1.4639647 -0.012665272 1.5320911 -0.23972178 0.19815397 -2.5742197 6.7247496 7.9809275 6.4433126 7.6800327 6.728094 5.9502163 1.5431328 -5.4353476 -2.3555365 -8.360288 -13.867664 -11.630753 -9.027038 -7.986607 -10.117412 -8.782035 -7.589617 -6.276565 -6.1223197 -6.2485375 -4.7043424 -4.674302 -4.512272 -5.427357 -5.2659497 -4.9059267 -5.054058 -5.3654294 -4.8734465 -4.5949664 -4.981269 -5.0859756 -4.3011427 -4.770257 
];
Gyro_x=[-0.036240887 0.031977255 -0.28672937 -0.11192039 -0.43595657 -0.4146384 -0.107656755 -0.16628173 -0.48712018 -0.50737244 -0.34535435 -0.20785217 -0.07781132 -0.12897493 -0.2771362 -0.15242493 -0.3016521 -0.3783975 -0.45834064 -0.39758387 -0.4572747 -0.34855205 -0.2920589 -0.05649315 -0.26008168 -0.07034996 0.0628886 0.024515893 -0.20252262 -0.163084 -0.174809 -0.07461359 -0.11831585 -0.13430446 -0.07141587 -0.0010659085 -0.09486585 -0.06928405 -0.0884704 -0.019186351 0.015988627 -0.019186351 -0.08953631 -0.08527268 -0.11831585 -0.23023623 -0.2387635 -0.26754302 -0.061822694 0.037306797 0.037306797 -0.044768155 -0.1769408 -0.18120444 0.012790902 0.18120444 -0.14816129 -0.48605427 -0.45087928 -0.57559055 -0.7983655 -0.57878834 0.2622135 2.899271 4.6590858 6.0266466 4.883993 1.9506125 1.5093265 0.81435406 -2.1392782 -3.0975301 -3.611298 -4.6558886 -4.428849 -4.3137317 -4.3904777 -3.5441456 -1.7662104 0.2366317 2.1520693 4.487475 7.578609 9.85539 7.248178 4.9447494 2.8235915 -0.90495634 -3.2819324 -3.4290276 -3.3384256 -4.365961 -4.77527 -4.6271086 -4.619647 -4.1271977 -3.5835845 -1.1959493 -0.50097704 1.1117425 5.600283 7.1096096 9.614495 8.868359 3.7573276 3.3682709 2.142476 -1.0339313 -2.2735827 -2.5272691 -2.6743643 -3.8969615 -4.6942616 -3.856457 -3.237164 -2.9099302 -0.41037476 1.0136789 4.8061814 6.4924493 7.967666 11.149403 9.272338 6.966778 3.95985 2.3002303 -0.031977255 -3.8596547 -4.5471654 -3.4077094 -4.0845613 -4.115473 -3.5921116 -3.1486938 -1.8951854 -0.7013678 -0.652336 0.30804753 0.90922 1.596731 2.039083 2.1073012 2.5677733 2.2501328 1.7747376 1.3291879 1.3803514 1.2193995 0.85592455 0.20252262 0.12151357 0.1257772 0.12257948 -0.13004084 -0.22490668 -0.06395451 0.078877226 0.08420677 -0.14283174 -0.09379995 -0.018120443 0.058624968 -0.13750221 0.02131817 0.12897493 0.06395451 0.010659085 0.17267717 0.163084 
];
Gyro_y=[-1.084029 -0.9731744 -1.1277313 -0.9305382 -0.58944744 -0.10126131 0.036240887 -0.3251021 -0.617161 -0.7493337 -0.77704734 -0.5297565 -0.46153837 -0.86232 -0.9273404 -0.7205542 -0.9475927 -0.16734761 0.23769759 0.3911884 0.17374308 -0.04263634 -0.19292943 -0.10126131 -0.008527268 0.09912949 0.0149227185 -0.009593176 0.3634748 0.41144067 0.3783975 -0.09806357 -0.1257772 -0.1129863 -0.036240887 -0.07781132 -0.04370225 -0.1385681 -0.1886658 -0.19932489 -0.23236805 -0.24515896 -0.18227033 -0.14816129 0.039438613 -0.114052214 -0.049031787 0.04370225 -0.10126131 -0.1385681 -0.3165748 -0.58731556 -0.4029134 -0.302718 -0.2771362 -0.6310178 -0.2131817 0.107656755 -0.32190436 -0.6299519 -0.83034265 -0.8953631 -0.81435406 -0.9326699 0.06608633 -0.86232 -1.502931 -1.0051517 -3.4546094 -5.164326 -4.494936 -3.5174978 -3.1518917 -3.8905659 -3.8905659 -4.2657657 -2.6189373 -3.1497595 -1.4507015 0.14176582 1.2844198 0.051163606 -0.4242316 -4.632438 -2.1030374 -5.5384607 -5.6034803 -4.516254 -4.041925 -3.9864979 -4.062177 -3.6624615 -4.211405 -4.33505 -2.5667076 -2.492094 -3.9705093 -2.6157396 -1.3654289 -1.899449 -0.50097704 0.38692477 -2.822526 -2.7329895 -4.6686797 -5.112097 -4.296677 -5.6120086 -4.4757495 -3.691241 -4.207141 -3.7797117 -4.491739 -3.12098 -2.0817194 -2.1446078 -2.2959669 -0.8697814 -0.050097696 -0.65873146 -2.7084737 -1.5796764 -4.954343 -6.0053287 -5.1739197 -4.3702245 -6.6853786 -4.575945 -3.039971 -4.3020067 -3.8628523 -3.0218506 -1.327056 -1.3494401 1.2982767 1.6148512 0.41783616 1.3142653 1.7065195 0.38905662 0.52869064 -0.6118314 -0.32723388 0.52655876 -0.89429724 -0.78664047 -0.12684311 0.34002483 -0.19506125 -0.5723929 -0.024515893 0.31870663 -0.04796588 -0.5425474 -0.10019539 0.25368622 0.13004084 -0.21851125 0.033043165 0.13537037 0.11192039 -0.16628173 0.07034996 0.083140865 -0.17374308 -0.30378392 0.06608633 0.09699768 -0.28353164 
];
Gyro_z=[0.1758749 0.2387635 0.36667255 0.16521582 0.361343 0.48179063 0.09379995 0.02771362 0.39332023 0.114052214 0.079943135 0.025581803 0.0053295423 0.023449987 0.14602946 0.04370225 0.09273404 -0.21957715 -0.44448385 -0.8729791 -0.5841178 -0.3165748 -0.3112453 -0.3538816 -0.2856635 -0.41677022 -0.55320656 -0.5841178 -0.4924497 -0.49138382 -0.32190436 -0.15775445 -0.11085448 0.004263634 0.018120443 -0.08100905 0.09379995 0.06715223 0.04583407 -0.04583407 0.21851125 0.32723388 0.25048852 0.2387635 0.151359 0.2920589 0.16947946 0.1620181 0.1129863 0.2739385 0.3155089 0.38159522 0.4391543 0.53508604 0.38585886 0.34748617 0.44981337 0.523361 0.3879907 0.66192925 1.1479834 2.1382124 2.8715575 1.5178536 0.19932489 -1.2396516 -3.6709888 -7.0723033 -7.4443054 -7.243914 -6.780244 -6.4519434 -5.4340014 -3.1412323 0.09273404 2.515544 7.5274463 8.218155 9.426894 10.421387 9.371468 6.5617323 3.6049025 0.80049723 -4.902113 -7.5338416 -8.708472 -8.410018 -6.9998207 -5.6695676 -4.1527796 -0.19079761 1.0584471 2.0710602 3.6880436 4.8477516 6.2973876 7.921832 9.200921 9.845798 7.200212 4.7123814 -0.105524935 -5.189908 -8.580564 -9.997156 -8.995203 -7.4976 -5.5000877 -3.5942433 -1.2599038 0.4636702 4.2007456 6.287794 8.236275 9.3469515 10.15491 10.830697 9.529222 6.620358 4.7326336 0.652336 -4.6526904 -7.697991 -10.362762 -10.976726 -9.731745 -6.886835 -5.0140333 -0.9625154 2.3812394 3.0719483 3.7658544 4.5556927 4.6963925 4.14745 3.6656594 3.3863914 3.1732094 2.923787 2.2064307 1.480547 1.2609698 0.7418723 -0.09379995 -0.2387635 -0.2227749 -0.26327938 -0.29632258 -0.103393115 0.109788574 0.13430446 0.015988627 0.06928405 0.13537037 0.11192039 -0.060756784 -0.12044766 -0.058624968 0.0628886 -0.019186351 -0.23343396 0.017054535 -0.115118116 -0.19932489 -0.029845437 0.1620181 0.009593176 -0.09593176 
];
Gravity_x=[4.603598 4.4906406 4.399591 4.3065486 4.2114134 4.250259 8.882305 8.886022 9.041382 9.122144 9.288307 9.352167 9.393035 9.438124 9.503982 9.651574 9.689823 9.719462 9.714816 9.684029 9.6473675 9.626518 9.620657 9.617524 9.60465 9.591659 9.567989 9.538154 9.498964 9.453074 9.407039 9.379793 9.37461 9.37453 9.379498 9.381367 9.393195 9.402574 9.414496 9.422218 9.434848 9.46045 9.488845 9.510005 9.524243 9.530506 9.544687 9.549892 9.556288 9.565831 9.589384 9.620309 9.654602 9.683014 9.709316 9.729262 9.748203 9.762899 9.782695 9.793135 9.803731 9.801825 9.747051 9.474328 9.376983 9.376128 9.553206 9.776678 9.671328 8.9608135 7.6121283 5.9330764 4.1295958 2.6482866 1.7968825 1.788589 4.668798 6.5843415 8.297709 9.41121 9.63736 8.20788 7.4037237 7.21366 8.342219 8.756738 8.719092 7.6855307 6.0925193 4.5882816 3.3614893 2.7390096 3.0644546 3.8265274 4.824464 5.996045 7.282608 8.505625 9.143693 9.013533 6.7831736 5.669066 5.081621 6.7525992 7.227267 7.0031314 5.840573 4.176434 2.6352992 1.5742841 1.2033201 1.4287438 3.4422271 5.1155686 6.6458817 7.784312 8.308049 7.910026 6.586187 5.0664783 4.15464 4.180424 4.8167133 5.9804277 6.2263117 5.0194306 3.0298598 1.3209325 0.16800708 -0.28760976 0.44517478 1.7167121 2.8504527 3.7253475 4.7437773 4.483941 4.2270136 4.0484986 3.5301452 3.144447 2.9786007 2.8758838 3.039862 2.9975364 2.962882 3.192414 3.3458533 3.318976 3.2749653 3.3512936 3.4719849 3.4414458 3.3817618 3.4398222 3.5356307 3.5280955 3.4764612 3.5138545 3.4847507 3.4531813 3.4379652 3.4356506 3.413165 3.393187 3.4511504 3.5033305 3.4845407 3.4974282 3.5898452 
];
Gravity_y=[7.254045 7.2323833 7.209449 7.214208 7.2130156 7.2253227 1.3959584 1.3601279 1.2609911 1.1076944 0.9018582 0.8557733 0.84019583 0.83377254 0.80913407 0.6211869 0.5938281 0.58392507 0.6535124 0.8245264 1.0476062 1.1723973 1.2459166 1.3413322 1.4273046 1.5112561 1.6343038 1.7991298 1.9716146 2.101229 2.2082777 2.2726657 2.3125 2.3291435 2.317224 2.3175254 2.3197148 2.2961981 2.2789335 2.27694 2.2660046 2.1979082 2.1098258 2.039291 1.9786526 1.9347534 1.8700509 1.8328178 1.7941902 1.7540983 1.66934 1.5744041 1.458545 1.3159726 1.1908238 1.0902002 0.9828127 0.8402642 0.5724892 0.4317723 0.2185916 -0.25572088 -1.0123159 -2.4153311 -2.798629 -2.8652778 -2.211222 -0.69680387 1.4100982 3.4234498 5.2269173 6.854259 8.159274 9.007665 9.471384 9.6127615 8.5426 7.0604362 4.9441648 2.250498 -0.6821036 -4.5713134 -5.307819 -4.837911 -1.2179586 1.1578677 3.7161846 6.010725 7.676223 8.648514 9.160161 9.266417 8.9526615 8.381624 7.5617657 6.330925 4.7101383 2.7302442 0.38917527 -2.2463617 -6.02928 -6.339701 -5.505021 -0.4241051 2.3247945 4.9380817 7.1334147 8.550455 9.195643 9.336035 9.214416 8.92521 7.426384 6.048978 4.217526 1.7587013 -0.9409901 -3.4939978 -5.3882766 -5.995429 -5.592488 -3.8509176 -1.0235926 1.9943589 4.8136597 7.130582 8.640052 9.065926 8.684622 8.02228 7.3812866 6.4425826 5.337415 4.106252 1.4546492 0.41342893 -0.2693517 -0.820125 -1.07928 -1.0413635 -0.760808 -0.37124437 0.14260715 0.74635494 1.2973458 1.758413 2.1445813 2.5286374 2.834038 3.0250552 3.070994 3.090307 3.116685 3.137539 3.077425 3.0145278 3.0331264 3.0530653 3.0160925 2.9986367 3.011252 2.9983025 2.9755335 3.000274 3.0400205 3.035272 3.0402954 3.0886102 3.126488 
];
Gravity_z=[-4.7282224 -4.867972 -4.983757 -5.0575876 -5.138754 -5.089242 3.9148843 3.9190607 3.5824106 3.4248948 3.0140288 2.8240075 2.6898549 2.5292315 2.2781577 1.6222283 1.3874743 1.1668187 1.1686071 1.307728 1.4146391 1.4580804 1.4356256 1.369096 1.3725506 1.3735291 1.3975081 1.3989745 1.4327531 1.5474503 1.6737732 1.7392025 1.714464 1.6922241 1.6810291 1.6701427 1.5991234 1.5778072 1.531041 1.4858361 1.4209943 1.356271 1.2964611 1.2535858 1.2426217 1.2635504 1.2538836 1.269139 1.2761843 1.2603043 1.1947387 1.0683131 0.91196865 0.8232976 0.693895 0.5685627 0.42071867 0.38748336 0.3761632 0.28012246 0.09723784 -0.17098318 -0.37495473 -0.757393 -0.640524 -0.22085428 -0.1308578 -0.31843787 -0.80461687 -2.0381815 -3.302305 -3.7400718 -3.5416138 -2.831773 -1.798468 -0.7524363 1.1818191 1.7225189 1.6951786 1.5920892 1.6811972 2.8114374 3.6307487 4.5528135 5.0094247 4.2601957 2.5174947 0.987005 0.35661477 0.5668103 0.98091185 1.6738394 2.5747447 3.3580408 3.964169 4.487448 4.576964 4.0460424 3.5230412 3.143319 3.7157395 4.882649 6.3278966 7.0987964 6.2074423 4.768841 3.3425245 2.370126 2.160025 2.5554733 3.133201 3.803908 5.40095 5.780242 5.8493705 5.6992855 5.12457 4.625347 4.8743205 5.8784366 6.901698 7.9915485 8.480678 7.5118165 5.8508196 4.4866977 3.5128114 3.4977868 4.5518665 5.6330013 6.441181 7.191412 7.717337 8.088934 8.458779 8.7117 8.844784 8.894235 9.08535 9.230297 9.31233 9.368128 9.322514 9.307423 9.257894 9.104219 8.96529 8.874727 8.798477 8.705645 8.642031 8.64736 8.661428 8.630981 8.6138935 8.639187 8.653597 8.6314535 8.656216 8.67491 8.676584 8.681986 8.698672 8.69799 8.661306 8.642002 8.64783 8.625477 8.573708 
];
Position_X
0.40809456 0.4106653 0.41325226 0.4158555 0.41847515 0.4211113 0.42376405 0.4264335 0.4291198 0.431823 0.43454322 0.4372806 0.4400352 0.44280717 0.4455966 0.4484036 0.45122826 0.45407075 0.4569311 0.4598095 0.46270606 0.46562082 0.46855396 0.47150558 0.4744758 0.4774647 0.48047245 0.48349914 0.4865608 0.4896525 0.49273354 0.49583995 0.49896228 0.5021111 0.5052614 0.5083925 0.5115597 0.514748 0.51795566 0.5211981 0.5245021 0.52780825 0.5311445 0.5345261 0.53792423 0.5413308 0.5447504 0.5481821 0.5516354 0.55511045 0.5586074 0.5621264 0.56566757 0.56923103 0.57281697 0.57642543 0.58005667 0.5837108 0.5873879 0.59098494 0.5944317 0.5975953 0.60025823 0.60223365 0.60428 0.60707784 0.61150026 0.6179851 0.6266984 0.6363969 0.6462464 0.65561444 0.66356033 0.66947144 0.6732489 0.674524 0.67324704 0.6697907 0.6640916 0.655997 0.6458541 0.6346616 0.62388575 0.61366135 0.60399675 0.59624666 0.59051496 0.5862736 0.5829692 0.5801527 0.57696486 0.5722608 0.5658166 0.55795175 0.54899645 0.5386668 0.5267481 0.5132593 0.49775764 0.47988275 0.4597209 0.43841225 0.4167023 0.39477575 0.37358305 0.35509557 0.33896536 0.3250432 0.3126702 0.30030215 0.28804097 0.2755953 0.26313806 0.25090832 0.2384407 0.22514144 0.21079226 0.19459471 0.17663848 0.15714478 0.13639456 0.11458099 0.091795 0.07010645 0.05044504 0.034310013 0.021774884 0.012722575 0.006434841 9.53402E-4 -0.0039034558 -0.008293878 -0.012274841 -0.01600541 -0.019264357 -0.023190094 -0.027939238 -0.03341333 -0.039807193 -0.047056474 -0.055051364 -0.0633759 -0.07133623 -0.07918626 -0.08635037 -0.09231004 -0.09723324 -0.10131436 -0.10463712 -0.106987916 -0.102096006 -0.09720813 -0.09232407 -0.087443665 -0.0825667 -0.077693 -0.072822355 -0.067954585 -0.0630895 -0.058226895 -0.053366587 -0.048508387 -0.0436521 -0.03879753 -0.03394449 -0.029092794 -0.024242243 -0.019392647 -0.014543816 

Position_Y
1.6128204 1.6229802 1.6332041 1.6434923 1.6538453 1.6642636 1.6747475 1.6852974 1.6959138 1.7065971 1.7173476 1.7281659 1.7390523 1.7500073 1.7610314 1.7721248 1.7832881 1.7945218 1.8058262 1.8172019 1.8286492 1.8401686 1.8517606 1.8634256 1.875164 1.8869765 1.8988633 1.910825 1.9228417 1.9349097 1.9470477 1.9592426 1.9715317 1.9839 1.996343 2.0088522 2.021468 2.0341563 2.046925 2.0597742 2.0727036 2.0856862 2.0987391 2.1118824 2.1251216 2.1384742 2.1519253 2.1654873 2.1791346 2.192868 2.206688 2.220595 2.2345893 2.2486718 2.2628431 2.2771034 2.2914538 2.3058944 2.320426 2.3350413 2.3497503 2.3645697 2.3794236 2.3944142 2.4097636 2.4255066 2.4416623 2.4582193 2.4749947 2.490793 2.504871 2.5167308 2.5259316 2.532666 2.5378594 2.5420794 2.545461 2.5474174 2.5477955 2.5464416 2.543384 2.538829 2.5349174 2.531846 2.529288 2.5261686 2.5219378 2.5158448 2.507201 2.4955857 2.4815087 2.4655156 2.44802 2.4293473 2.4095247 2.3885972 2.3667805 2.3439238 2.3199344 2.2945883 2.2676442 2.2401552 2.2136738 2.18817 2.1620128 2.1342633 2.1039948 2.070872 2.0346286 1.9961833 1.9559242 1.9142029 1.8709574 1.8265612 1.7807076 1.7333158 1.6843787 1.6334916 1.5804958 1.5258921 1.4707919 1.4155848 1.3603876 1.3052319 1.2494314 1.1919912 1.1324433 1.0704794 1.0061276 0.94052386 0.873813 0.8059499 0.73714584 0.6675896 0.59733915 0.5268462 0.45638254 0.385545 0.3149286 0.24474996 0.17472382 0.10470622 0.0348606 -0.03498579 -0.10490008 -0.17473482 -0.24455641 -0.31444633 -0.38448644 -0.45464277 -0.43385473 -0.41308376 -0.3923291 -0.3715899 -0.35086536 -0.33015466 -0.30945697 -0.2887715 -0.2680974 -0.2474339 -0.22678013 -0.20613532 -0.18549863 -0.16486925 -0.14424637 -0.12362918 -0.103016876 -0.08240862 -0.061803624 

Position_Z
0.46954393 0.47250178 0.47547826 0.47847348 0.4814876 0.48452067 0.48757288 0.4906443 0.49373507 0.4968453 0.49997514 0.5031247 0.5062941 0.50948346 0.51269287 0.51592255 0.51917255 0.52244306 0.5257341 0.52904594 0.5323786 0.53573227 0.5391071 0.5425031 0.5459206 0.54935956 0.5528202 0.55630267 0.55977863 0.5632656 0.56678504 0.5703354 0.57388496 0.57745874 0.58107847 0.58474094 0.58840704 0.5920948 0.595785 0.5994774 0.6031894 0.6069235 0.61070305 0.61452246 0.61838526 0.6222833 0.62619704 0.63014525 0.6341183 0.6381164 0.6421396 0.6461882 0.65026224 0.6543619 0.65848744 0.6626389 0.6668165 0.6710203 0.6752507 0.67947245 0.68367183 0.6878664 0.6922107 0.6968951 0.7032874 0.71108466 0.71986425 0.7283083 0.73601335 0.74305457 0.749342 0.7548223 0.7593997 0.7635064 0.7666865 0.7692389 0.7711371 0.77252805 0.7738369 0.7761477 0.77982616 0.7853853 0.79321843 0.80344963 0.8160258 0.82767135 0.83757555 0.8453332 0.850598 0.853378 0.8539789 0.85304517 0.8505684 0.8465991 0.8415055 0.83549607 0.82838166 0.8199436 0.810693 0.80090547 0.79120624 0.7830007 0.77707124 0.7736323 0.771204 0.76782936 0.7626308 0.75546575 0.746533 0.7356369 0.7226115 0.70738024 0.6901545 0.6710496 0.6501842 0.6275172 0.60338604 0.57847154 0.55369943 0.5295728 0.50666046 0.48527828 0.46564168 0.4474503 0.43017802 0.4125807 0.3943304 0.3754447 0.35561055 0.33366355 0.30957273 0.2833293 0.25583076 0.22742616 0.1982587 0.16910914 0.14002727 0.111583404 0.084054284 0.057540283 0.032052323 0.007947757 -0.014832307 -0.036456853 -0.0564965 -0.07484821 -0.09186808 -0.107961364 -0.12313956 -0.13744034 -0.13115601 -0.12487688 -0.118602656 -0.11233312 -0.10606801 -0.099807076 -0.093550086 -0.087296784 -0.081046924 -0.07480026 -0.06855654 -0.06231553 -0.056076977 -0.049840633 -0.043606255 -0.0373736 -0.031142414 -0.024912456 -0.018683484 


