LinearAcc_X
10.399887 10.359834 10.381504 10.324939 -0.3177948 -0.10436487 -0.010583878 -0.24705744 -0.40560532 -0.61125946 -0.15756989 -0.4743414 -0.4737606 -0.05113125 -0.09708786 -0.31329775 -0.13881254 0.046274185 -0.42691374 -0.94391155 -0.49973297 0.3575945 -0.5900545 -0.6694913 -0.59352493 -0.44774246 -0.18096733 -0.71667194 -0.66842985 -1.5267439 -0.41577435 -0.41029406 -0.6238828 -0.14324856 -0.12174988 0.17109299 -0.13885021 -0.398036 -0.5947056 -0.41489267 -0.21821165 -0.27382612 -0.60816765 -0.68146133 -0.4065442 -0.50674057 -0.41466475 -0.0607996 -0.47122192 -0.16932106 -0.5496154 -0.4670329 -0.3283 -0.5794134 -0.5307894 -0.50657034 -0.5964322 -0.21868658 0.092905045 -0.20647907 -0.3739829 -0.435143 -0.66799116 -0.52634287 -0.27357578 -0.42804146 -0.29858446 0.045308113 0.98552513 0.37242317 1.0174026 3.6628475 2.8766775 2.3348322 8.203563 5.8610945 4.6985426 5.0942183 5.322178 6.1961255 2.1491632 -2.8323631 -6.071859 -10.440685 -13.292013 -16.73325 -18.11828 -21.017727 -14.440527 -8.681167 -7.7270193 1.2402735 9.052142 9.444475 8.309446 3.04385 -4.7139106 -8.333078 -8.036968 -7.15359 -9.6758585 -4.1188674 1.0730362 2.7850838 3.1445227 5.9341717 5.431837 13.19897 18.18135 18.074306 17.986946 11.871669 -3.704372 -6.957509 -13.125229 -22.049349 -26.155727 -25.38034 -25.086569 -25.096169 -24.140837 -23.95566 -23.06046 -20.59238 -7.5969677 -3.1072402 10.168144 20.778185 21.318367 21.624592 19.179176 18.452547 20.387903 4.053851 -4.9474792 -13.170091 -29.478449 -18.76029 -14.487352 -8.8578205 -5.2846 -3.089029 -2.0551212 0.52143145 4.736204 3.8104067 2.553124 3.1165662 2.3861866 1.4935379 1.7559996 1.1634588 0.34174728 0.9616952 2.3352237 1.6209497 1.1067886 1.2660646 0.85553837 0.37242794 0.4064541 0.7110839 0.23326111 0.014480591 -0.04535389 

LinearAcc_Y
-6.5817976 -6.4980345 -6.506646 -6.4994974 -0.15816474 -0.08473182 -0.13541698 -0.11628461 -0.0602746 -0.16634512 -0.24084616 -0.36421776 -0.004167795 -0.2912948 -0.2027154 -0.2579913 -0.20709229 -0.2915733 -0.40325022 -0.2950275 -0.20895839 -0.2479558 -0.27274466 -0.22648859 -0.19470501 -0.21252799 -0.19122767 -0.08892107 0.055095434 -0.15614343 -0.36652493 -0.0010509491 -0.14715052 -0.042658806 -0.22779131 -0.20246935 -0.21986246 -0.12751985 -0.30028105 -0.13615751 -0.29229355 -0.031390905 -0.100544214 -0.22940087 -0.14942169 0.06399751 -0.097990274 -0.051498175 -0.084747076 -0.36780357 -0.11417508 -0.22247648 -0.15587878 5.6672096E-4 -0.16566515 -0.106616735 -0.010891676 -0.03070712 0.041350126 0.10329795 0.1036706 0.007739544 -0.033191204 0.103811264 -0.12869263 -0.01687789 0.18776226 0.36629796 0.1732707 0.42167258 0.17600965 0.26647902 1.8265026 2.8122647 0.91629577 2.408585 0.116919994 -0.6252804 -1.3671017 -5.189228 -7.710572 -7.6686616 -6.9976516 -7.732246 -4.617041 -2.3381667 -5.8200865 -5.460417 -12.216717 -20.165808 -18.878693 -19.043665 -9.896001 -8.779459 -8.982648 -6.391685 -10.899405 -15.150693 -16.601858 -20.491783 -23.815268 -19.80347 -15.8076315 -9.120094 -4.0869884 -0.13969183 3.178288 2.40764 1.1392949 0.41224268 -0.7222487 -8.017887 -25.069012 -30.526754 -26.569126 -16.920027 -12.188217 -12.643945 -12.907534 -12.950786 -13.643543 -14.939822 -15.961435 -17.862045 -25.831509 -18.594152 -4.464277 6.2138557 6.817005 7.0741544 4.7254944 4.0152373 5.732579 -12.945779 -24.734758 -27.255938 -10.173624 -12.044855 -7.6298394 -5.3945084 -3.554432 -2.9523153 -0.98561907 -0.49703836 -0.5073042 -0.4793496 0.14974928 0.24265385 0.16135645 -0.15242338 0.14502096 0.11743879 0.1491661 0.40194225 -0.1748271 -0.13876343 0.12348223 -0.017526627 -0.11613798 -0.03711605 -0.09310436 -0.40901756 -0.36795568 -0.19132566 -0.2651844 

LinearAcc_Z
7.3337545 7.1317625 7.03493 7.088193 -0.12221718 -0.16673708 -0.2801442 -0.087762356 -0.11457348 0.07835817 0.05340147 -0.17368984 0.03183365 -0.047394276 -0.16795397 -0.14611053 -0.017329693 -0.3871765 -0.20530367 -0.107572556 -0.019639492 -0.18008518 -0.046524048 -0.2040062 -0.09110451 -0.31818867 -0.31590128 -0.58142996 -0.343009 -0.21602821 0.0522871 0.41666508 0.115592 -0.02820015 0.24263573 0.26630354 -0.37892175 -0.54363227 -0.26945543 -0.12783146 -0.44596124 -0.18653107 0.19973278 0.4170518 0.3290372 -0.115116596 -0.29460573 0.09058142 0.20659494 0.031449795 -0.27619076 -0.12630224 -0.10785389 -0.17410946 -0.4503684 -0.37552118 -0.041954994 0.04330778 -0.16337633 -0.071162224 -0.05211115 -0.2316804 0.15695095 0.2906561 0.2522397 0.21651077 0.7476182 -0.051152706 0.73769665 0.68933153 0.85325813 0.714427 1.5933838 1.39639 1.1957989 1.6590395 1.5851998 1.5707145 -1.2205194 -1.6589192 -0.649927 -0.70365995 -0.9593965 2.5898352 5.3596897 11.258314 18.287338 18.48498 19.206713 20.064672 15.241016 -0.12869978 -16.95745 -16.684355 -16.656195 -16.90513 -17.55873 -17.656767 -17.961836 -18.435377 1.9971783 16.096405 17.063648 20.241161 20.439035 20.636763 19.558868 21.446445 21.12996 20.953957 17.963497 11.082337 -2.2804434 -12.850973 -14.415096 -5.822296 -0.1633234 -0.773005 4.1059628 6.322139 6.3103404 9.762986 10.412873 8.076179 14.224522 12.493926 10.235323 4.726448 10.560106 1.1763978 -12.997437 -13.728913 -15.979137 5.3886323 15.633257 18.767189 18.864347 10.706577 7.889227 7.8430514 5.236761 2.425741 0.7950258 0.27331257 -1.2376914 -1.0158348 0.5377116 -0.20167065 0.33504486 0.14575386 0.93577194 0.91884947 0.9020157 1.9366097 1.889108 1.301069 0.859591 1.5352442 1.6989954 1.4158785 1.8309357 1.6274035 1.4100609 1.4346495 1.4707057 

Gyro_X
-0.036240887 -0.029845437 -0.08527268 -0.13430446 -0.14922719 -0.163084 -0.15668854 -0.10445904 0.04370225 -0.10019539 -0.09593176 -0.139634 0.023449987 -0.072481774 -0.15988627 -0.15455674 -0.006395451 0.02771362 -0.117249936 -0.23982942 -0.33043164 -0.163084 -0.024515893 -0.04796588 -0.18333627 -0.15668854 -0.079943135 0.07354769 0.4999111 0.50097704 0.41144067 0.023449987 -0.105524935 -0.072481774 -0.079943135 -0.049031787 -0.072481774 -0.06608633 -0.11085448 -0.279268 -0.3517498 -0.16095218 -0.10019539 -0.078877226 -0.083140865 -0.059690874 -0.03517498 0.08953631 0.010659085 -0.083140865 -0.08953631 -0.09166814 -0.076745406 -0.109788574 -0.06821814 -0.08527268 -0.09593176 -0.037306797 0.033043165 0.041570432 -0.04263634 -0.11085448 -0.0884704 -0.02771362 -0.109788574 -0.006395451 -0.025581803 0.19079761 0.0874045 -0.002131817 0.18333627 0.51909745 0.5649315 0.7674541 0.84633136 1.1149402 1.1703676 1.1149402 0.75786096 -0.3165748 -1.4133946 -1.7960558 -2.0071058 -2.7532418 -2.2927692 -1.130929 0.5116361 2.9717531 5.9179244 6.461538 7.1277304 6.9859643 3.6741865 2.6860893 1.4251196 0.44768155 -2.0795875 -4.4512334 -5.9669557 -8.238407 -9.340556 -7.7427597 -6.5713263 -4.8232355 -1.8887899 -0.27180666 -0.06928405 2.061467 3.4450161 4.424586 6.6736526 5.6557107 4.5173197 2.0667965 0.8207495 0.77917916 0.15882036 -0.015988627 -0.117249936 -0.3155089 -0.05222952 0.71735644 0.6768519 0.18440217 0.83673817 -1.1970153 -0.93906534 0.56812924 0.34748617 0.12257948 0.117249936 -2.2170897 -2.6040146 -2.855569 -2.7319233 0.20358852 0.060756784 0.103393115 0.547877 0.5915792 0.40397933 0.53828377 0.6310178 0.37200204 0.1129863 0.09593176 -0.037306797 -0.025581803 -0.1758749 -0.139634 -0.14496355 -0.079943135 -0.029845437 -0.11831585 -0.059690874 0.0031977254 0.0 0.031977255 -0.05542724 0.0 0.038372703 0.04370225 0.103393115 0.041570432 0.06395451 

Gyro_Y
-0.01385681 -0.06928405 -0.017054535 -0.058624968 -0.23982942 -0.26434532 -0.24942258 0.05222952 0.12044766 -0.04263634 -0.105524935 -0.151359 -0.117249936 -0.117249936 0.02131817 -0.01385681 0.10232721 0.08100905 0.023449987 -0.10232721 0.09912949 0.14069992 0.018120443 -0.10126131 0.051163606 0.12684311 0.037306797 -0.26541123 -0.19079761 -0.28139985 -0.46686792 -0.33043164 -0.39438617 -0.10019539 -0.1257772 -0.11831585 -0.16734761 0.09912949 0.10232721 0.1129863 0.0053295423 0.04370225 0.23982942 0.14283174 0.076745406 -0.02131817 -0.24942258 -0.26541123 -0.20039079 -0.14283174 -0.09486585 0.06715223 0.19186352 0.07781132 -0.057559058 0.0010659085 0.23769759 -0.0756795 -0.24089532 -0.1129863 0.10019539 0.079943135 0.020252263 0.049031787 0.12471129 0.0 0.0874045 -0.22703852 0.38372704 0.6470065 0.41250658 -1.0850948 -0.71735644 -0.81755185 -1.2098062 -1.666015 -1.9889852 -3.4993775 -4.4107294 -4.1602407 -1.187422 -0.8527268 -1.8504171 -0.7493337 0.009593176 -0.6107656 -0.41037476 0.010659085 1.1149402 0.89962673 -0.47006565 -1.4677559 -0.58198607 -0.664061 0.58624965 1.3600993 0.4348907 1.5157219 2.1211581 1.8227035 0.4402202 0.26754302 2.3812394 -0.10445904 -0.32723388 -1.0850948 -1.688399 0.99129486 -0.34002483 -1.2918812 0.4732634 -3.179605 -4.0557823 -2.202167 -1.0051517 0.076745406 0.006395451 0.06715223 0.9625154 1.4784151 1.5562265 2.2586598 3.761591 4.538638 0.86658365 4.7699404 3.2915254 -0.9689108 -0.8111564 -0.87191314 -1.9037125 -2.1765852 -0.11192039 -1.9484807 -2.6263986 -1.0232722 -0.6107656 -0.08100905 -0.34855205 -0.24409305 0.21531351 -0.107656755 -0.38266113 -0.14176582 0.051163606 0.38159522 0.5510747 0.033043165 -0.20358852 0.27607033 0.6661928 0.151359 -0.20891808 0.3442884 0.41250658 0.033043165 -0.08953631 -0.004263634 0.061822694 -0.040504526 -0.002131817 0.008527268 -0.12151357 0.13643628 0.0756795 

Gyro_Z
-0.0031977254 -0.006395451 -0.0149227185 -0.040504526 0.020252263 0.017054535 -0.07141587 -0.18546808 -0.14283174 -0.057559058 -0.10019539 -0.018120443 -0.3251021 -0.151359 -0.19612715 -0.13537037 -0.15988627 -0.163084 -0.105524935 0.024515893 -0.040504526 -0.1886658 -0.09060222 -0.038372703 -0.0074613593 0.0053295423 -0.009593176 -0.09166814 -0.24515896 -0.23130214 -0.16628173 -0.06502042 0.0031977254 -0.07141587 -0.022384077 -0.054361336 -0.0756795 -0.09912949 -0.04583407 -0.046899974 -0.049031787 -0.14496355 -0.06395451 -0.038372703 -0.01385681 -0.0010659085 0.011724994 -0.04263634 0.0149227185 -0.030911347 -0.04370225 -0.11192039 -0.13537037 -0.1129863 -0.103393115 -0.08527268 -0.010659085 -0.011724994 -0.05222952 -0.012790902 0.031977255 0.01385681 -0.060756784 -0.03410907 0.04796588 0.163084 0.42103386 0.28246576 0.28459758 0.40717703 0.29419076 -0.44661567 -0.38585886 -0.34002483 -1.2162017 -1.4880081 -1.6265764 -2.0337534 -2.461183 -2.281044 -2.7607028 -2.9269848 -2.7415166 -0.95292217 -0.5596019 1.385681 3.0026643 4.679338 5.252797 5.510747 5.9328465 4.1655707 1.6564218 0.61929286 0.115118116 -0.023449987 0.16521582 0.4647361 0.5723929 0.5596019 1.2066084 1.9729966 1.5572923 1.2780242 1.0723039 0.3783975 -0.023449987 -1.3387809 -3.0175867 -4.185823 -5.752708 -6.4391527 -6.718421 -6.636346 -4.340379 -1.9985784 -0.7056315 0.46047246 2.3236804 4.0952206 5.8219924 8.32368 10.48854 10.585537 9.834072 5.277313 3.389589 1.0275358 -1.0627108 -2.1446078 -3.7360094 -7.348373 -10.168767 -11.894473 -8.671165 -2.0561373 -1.1618402 -0.09486585 0.49671337 0.53508604 0.6118314 0.88363814 0.71735644 0.33895892 0.27607033 0.33895892 0.22810443 0.12790902 0.16947946 0.07461359 0.079943135 0.16947946 0.10019539 -0.07781132 -0.05542724 -0.08633859 -0.1897317 -0.17800672 -0.026647713 -0.053295426 -0.1257772 -0.0884704 -0.018120443 -0.116184026 -0.11938175 

Gravity_X
-2.5011256 -2.5043237 -2.5091126 -2.5157359 8.027422 8.064853 8.099213 8.123834 8.088266 8.070172 8.072707 8.08495 8.112265 8.111191 8.104136 8.087882 8.070607 8.042574 8.021839 8.023039 8.037651 8.007401 7.974142 7.967367 7.970511 7.958499 7.940248 7.9540505 7.976653 7.9807982 8.019443 8.058842 8.099319 8.156275 8.163971 8.175413 8.188035 8.190764 8.17341 8.152112 8.141961 8.133298 8.109976 8.078471 8.056894 8.043727 8.059094 8.103525 8.131447 8.1518 8.186681 8.186735 8.160718 8.1246195 8.109348 8.103138 8.08063 8.057558 8.070715 8.093414 8.102897 8.090341 8.05144 8.044982 8.030811 8.018457 8.03221 8.070109 8.151007 8.122789 8.077227 8.09956 8.193135 8.250278 8.324996 8.303095 8.251947 8.147662 7.9384966 7.526718 6.999955 6.3758326 5.69096 5.146148 4.924623 5.0380235 5.499324 6.39267 7.4303446 8.353983 9.088427 9.417754 9.414925 9.356254 9.337696 9.419896 9.555726 9.59392 9.667024 9.732923 9.751591 9.719726 9.695693 9.6775875 9.612408 9.554871 9.484637 9.45386 9.601585 9.668227 9.634963 9.399633 8.575691 7.3535557 5.0200434 4.2760005 3.9551797 3.9288046 4.2038717 4.9405074 6.0523825 7.2594666 8.42188 9.054382 8.56074 7.361749 6.764182 6.286993 6.121336 6.449092 6.927626 7.6698327 9.157598 8.762253 7.0739555 4.346918 3.7706056 3.5826476 3.6200008 3.6929092 3.8265142 4.004407 4.183147 4.259259 4.2872167 4.3935127 4.5183973 4.629209 4.6436477 4.6667376 4.7359214 4.827377 4.853823 4.859335 4.8974314 4.9346704 4.910832 4.8651934 4.836295 4.8323617 4.8097906 4.7837663 4.7454724 4.728935 4.720789 

Gravity_Y
9.170981 9.173673 9.175911 9.181483 2.8031762 2.7781866 2.760118 2.7593021 2.8068147 2.8305006 2.8316333 2.8327558 2.8308775 2.8727238 2.8938792 2.9124708 2.9191854 2.960947 2.987657 2.977208 2.9356365 2.927709 2.9498248 2.9638665 2.9532654 2.919945 2.898162 2.9100394 2.9740658 3.103125 3.2163925 3.2889152 3.300219 3.2798288 3.2845278 3.2861354 3.2941144 3.3042145 3.311264 3.3106384 3.280004 3.2635021 3.276807 3.2773833 3.2733662 3.270607 3.2617795 3.2714653 3.2873137 3.2796447 3.2851284 3.2881992 3.3059964 3.3254385 3.3405957 3.355694 3.357605 3.3466935 3.3479977 3.3639998 3.3692403 3.3522768 3.3405342 3.3453364 3.3411202 3.3118834 3.2555285 3.162671 3.1242976 3.0610797 2.979924 3.0236888 3.1949356 3.378726 3.777776 4.1813955 4.667044 5.1600575 5.713388 6.2771153 6.811226 7.4099183 7.965474 8.342763 8.475237 8.3232155 8.009662 7.3829784 6.399479 5.09006 3.3704562 1.4888291 0.13530572 -0.49349254 -0.79196435 -0.8954086 -0.8704872 -0.77767307 -0.6775442 -0.58114976 -0.5984975 -0.8289879 -1.1686302 -1.4425616 -1.7084223 -1.8951012 -1.9420226 -1.8500676 -1.429023 -0.55846685 0.55811757 1.9003929 3.273421 4.4378257 6.166157 6.5007577 6.5976243 6.6015387 6.471398 6.1174355 5.332699 3.974574 1.7512506 -1.0898174 -3.9329205 -6.087509 -6.927422 -7.416331 -7.543235 -7.2457213 -6.7458205 -5.7343173 -0.65799886 2.5922444 5.6962247 7.822177 8.034735 8.095157 8.039985 7.910365 7.7780366 7.638765 7.44995 7.3081694 7.244119 7.18501 7.1359153 7.113007 7.1065526 7.114876 7.1242137 7.123015 7.1050863 7.1097116 7.1329074 7.1455355 7.1635184 7.189236 7.2238193 7.2339926 7.243295 7.255731 7.2499804 7.2485213 7.258705 

Gravity_Z
-2.409943 -2.39635 -2.382728 -2.3541064 4.886009 4.8384104 4.7911277 4.7497315 4.78248 4.799061 4.794123 4.7727814 4.7273345 4.7038727 4.703062 4.7195377 4.7448945 4.766567 4.784806 4.789307 4.7904677 4.8456597 4.8869195 4.889471 4.89076 4.9301724 4.972273 4.943189 4.868092 4.7799425 4.6382933 4.5175767 4.4362106 4.346064 4.3280272 4.3051505 4.274954 4.2619143 4.289667 4.3304863 4.3726916 4.4010696 4.434096 4.490819 4.532316 4.557628 4.536758 4.449807 4.386741 4.35459 4.2844577 4.2819986 4.3178077 4.370628 4.387396 4.38735 4.4272184 4.4772496 4.452512 4.3989205 4.3774033 4.413503 4.4928293 4.5008216 4.529169 4.5723243 4.588629 4.587073 4.468808 4.5629454 4.6956186 4.6286955 4.339965 4.0850325 3.548696 3.1216855 2.5088718 1.7775754 0.7126377 -0.3416209 -0.88216484 -0.7824673 -0.57843465 -0.2930492 0.29805997 1.2299612 1.3315811 0.8920634 0.08375936 -0.6874883 -1.4869184 -2.29339 -2.740666 -2.8960962 -2.889739 -2.5756946 -2.0250201 -1.8767811 -1.503313 -1.0501629 -0.84772825 -1.0050325 -0.8934113 -0.6585416 -0.92373866 -1.1328856 -1.562244 -1.8363373 -1.392062 -1.5439782 -1.7396438 -2.0507982 -3.4514682 -4.733001 -5.74004 -5.9687824 -6.082621 -6.0954537 -6.0513515 -5.8599286 -5.576862 -5.260541 -4.7090816 -3.6056674 -2.7232757 -2.217491 -1.5578992 -1.2814552 -1.34135 -1.4419171 -1.6347128 -2.1122673 -3.446134 -3.5599988 -3.6989894 -4.011011 -4.170847 -4.2194138 -4.2923903 -4.4675393 -4.5858827 -4.667369 -4.8135114 -4.961828 -5.0311885 -5.0242496 -4.983288 -4.9138503 -4.9095654 -4.8755 -4.794475 -4.704197 -4.7040977 -4.6914015 -4.615969 -4.5563927 -4.5539107 -4.562364 -4.538398 -4.5263696 -4.5355206 -4.543166 -4.592239 -4.6115575 -4.6038833 

Position_X
0.34244728 0.34560144 0.34980646 0.35505587 0.36028752 0.3624618 0.3646504 0.36685336 0.3690708 0.37130275 0.3735494 0.37581074 0.37808692 0.380378 0.38268408 0.38500527 0.38734162 0.38969326 0.39206025 0.3944427 0.39684072 0.39925438 0.40168378 0.40412903 0.40659022 0.40906742 0.41156077 0.41407037 0.41659626 0.4191386 0.42169747 0.42427295 0.4268652 0.42947423 0.43210024 0.43474326 0.43740344 0.44008085 0.44277564 0.4454879 0.4482177 0.45096517 0.45373043 0.45651358 0.45931473 0.462134 0.4649715 0.46782735 0.47070163 0.47359446 0.476506 0.47943628 0.48238552 0.48535374 0.48834112 0.49134776 0.49437377 0.49741927 0.5004844 0.50356925 0.50667393 0.50979865 0.51294345 0.51610845 0.51929384 0.52249974 0.5257262 0.52897334 0.5322414 0.53553045 0.5388406 0.542172 0.5455248 0.5488991 0.552295 0.55571276 0.5591524 0.5630601 0.567516 0.57255924 0.57772076 0.5825206 0.58667153 0.5896238 0.59109545 0.59061944 0.58772224 0.5821412 0.5744054 0.5650865 0.5546083 0.5445087 0.53606963 0.529314 0.52413845 0.5200134 0.5163358 0.51282454 0.5094938 0.5064378 0.5026702 0.49811357 0.49318528 0.48785833 0.48210967 0.47613242 0.46985874 0.46395284 0.45888913 0.45463872 0.45132998 0.44860926 0.4455317 0.4421731 0.4380669 0.43214387 0.42384076 0.41325122 0.40015548 0.38446242 0.36629713 0.34560913 0.3226185 0.29787162 0.2727254 0.24753618 0.22307737 0.20002005 0.17819273 0.15794955 0.13970289 0.123528235 0.10975118 0.09616366 0.08130419 0.06422585 0.04359119 0.020707618 -0.003877344 -0.029648485 -0.056154653 -0.08306442 -0.11019967 -0.10575767 -0.10131984 -0.09688602 -0.092456006 -0.08802964 -0.08360674 -0.07918715 -0.074770674 -0.07035715 -0.0659464 -0.06153825 -0.057132524 -0.052729055 -0.048327662 -0.043928176 -0.039530423 -0.03513423 -0.030739421 -0.026345825 -0.021953266 -0.017561574 -0.013170575 

Position_Y
0.5815191 0.5845557 0.58696264 0.58874017 0.5905251 0.59430534 0.59810895 0.60193616 0.60578716 0.609662 0.6135609 0.617484 0.6214314 0.6254034 0.6294 0.6334214 0.6374678 0.6415394 0.6456362 0.6497585 0.65390646 0.65808016 0.66227984 0.6665056 0.67075765 0.6750362 0.6793413 0.68367326 0.68803215 0.69241816 0.69683146 0.70127225 0.7057407 0.71023697 0.71476126 0.71931374 0.7238946 0.728504 0.73314214 0.7378091 0.74250525 0.74723065 0.75198555 0.7567701 0.7615844 0.7664288 0.7713034 0.77620846 0.78114414 0.7861106 0.791108 0.7961367 0.8011967 0.80628836 0.8114118 0.8165672 0.8217548 0.82697487 0.8322275 0.83751297 0.8428315 0.8481832 0.8535684 0.8589872 0.8644399 0.8699267 0.8754478 0.88100344 0.8865938 0.8922191 0.89787966 0.90357554 0.9093071 0.9150745 0.920878 0.9267178 0.9325942 0.938377 0.94399756 0.94905424 0.9533551 0.9570117 0.9601813 0.96291625 0.96561533 0.96860033 0.97153705 0.97436965 0.97611773 0.9757379 0.9732695 0.9690042 0.9643564 0.95948094 0.9543818 0.9492964 0.9437408 0.937193 0.9293858 0.91977066 0.9077254 0.8937693 0.8784885 0.86270416 0.84695786 0.8316835 0.81717384 0.8034501 0.7903291 0.77756786 0.76480645 0.7511624 0.7351342 0.7164234 0.6956411 0.6738838 0.6516595 0.6288995 0.60544264 0.5811404 0.5557507 0.5288759 0.50014585 0.46922064 0.43543944 0.39967704 0.36377892 0.3291849 0.29587683 0.26395875 0.23324414 0.20350575 0.17474756 0.14467385 0.11212497 0.07693189 0.04099069 0.0040259017 -0.033574 -0.07165958 -0.110079154 -0.14878404 -0.18758099 -0.18001986 -0.17246583 -0.16491859 -0.15737787 -0.14984334 -0.14231473 -0.13479173 -0.12727404 -0.11976137 -0.11225343 -0.10474991 -0.09725052 -0.08975497 -0.082262956 -0.07477419 -0.06728837 -0.059805203 -0.052324396 -0.04484565 -0.037368674 -0.029893171 -0.022418847 

Position_Z
-0.06073556 -0.060431674 -0.059427194 -0.057715833 -0.056019194 -0.05643741 -0.056857854 -0.05728054 -0.057705484 -0.058132704 -0.058562215 -0.058994036 -0.059428185 -0.059864674 -0.060303528 -0.060744755 -0.06118838 -0.06163442 -0.06208289 -0.0625338 -0.062987186 -0.06344306 -0.063901424 -0.06436231 -0.064825736 -0.065291725 -0.06576028 -0.06623143 -0.06670519 -0.06718159 -0.06766063 -0.06814234 -0.06862674 -0.06911384 -0.06960367 -0.07009625 -0.070591584 -0.07108971 -0.07159063 -0.07209438 -0.07260097 -0.073110424 -0.07362276 -0.074138 -0.074656166 -0.075177275 -0.07570135 -0.0762284 -0.07675847 -0.07729156 -0.0778277 -0.078366905 -0.0789092 -0.079454616 -0.08000316 -0.08055486 -0.08110973 -0.0816678 -0.0822291 -0.08279363 -0.08336143 -0.08393253 -0.08450692 -0.085084654 -0.08566574 -0.0862502 -0.08683807 -0.08742936 -0.088024095 -0.0886223 -0.08922401 -0.08982923 -0.09043799 -0.09105033 -0.091666244 -0.09228578 -0.092908956 -0.093267046 -0.093609974 -0.09397571 -0.09442533 -0.095125094 -0.0962037 -0.09748372 -0.09877617 -0.09965273 -0.09954183 -0.098549135 -0.09643635 -0.09307241 -0.088961616 -0.085237384 -0.082862206 -0.08176024 -0.08199266 -0.08374424 -0.08751241 -0.09352609 -0.10176206 -0.11215665 -0.1227276 -0.1318071 -0.1390426 -0.14415237 -0.14720652 -0.14817898 -0.14726347 -0.14396426 -0.13806714 -0.12954508 -0.118658885 -0.10632065 -0.09469906 -0.08508436 -0.07789494 -0.072630785 -0.068898365 -0.06672649 -0.06567275 -0.065511204 -0.066169225 -0.06729428 -0.06867842 -0.07028473 -0.07097651 -0.07061339 -0.0689345 -0.06610773 -0.06154844 -0.05609509 -0.051098406 -0.046599045 -0.04270875 -0.038230482 -0.0327416 -0.02639781 -0.01982263 -0.013271046 -0.006768101 -4.2976615E-5 0.0068599335 0.013800696 0.020703437 0.01986891 0.019035166 0.018202173 0.017369898 0.016538307 0.01570737 0.014877051 0.014047319 0.013218141 0.012389485 0.011561316 0.010733604 0.009906315 0.009079416 0.008252876 0.0074266614 0.0066007394 0.0057750777 0.0049496437 0.004124405 0.0032993287 0.0024743828 


