LinearAcc_X
5.318761 5.416933 5.3118644 5.348395 4.8319182 4.395841 4.0737224 3.7920678 3.5193624 3.3696132 3.3250933 3.2979202 3.0971632 2.7803414 2.365756 2.335856 2.0768287 1.8706977 1.6054916 1.5449173 1.3149066 1.2838259 1.1530664 1.0628319 0.86394715 0.8058233 0.83962107 0.7608552 0.51095295 0.57218885 0.6529813 0.72596216 0.4145732 0.44286203 0.75703 0.6139798 0.4019184 0.41185808 0.4111786 0.30546665 0.45594835 0.4080701 0.42115974 0.22124577 0.312119 0.32338667 0.31861162 0.3045349 0.24596786 0.44077396 0.30187988 0.28207254 0.2396245 0.19803238 0.15310144 0.29012585 0.17351532 0.053291798 0.14381695 0.20330477 0.10475969 0.14208889 0.08221054 0.14676619 0.21344805 0.07224369 0.0053801537 0.2965722 0.21969652 0.2909093 0.33417034 0.18908024 0.18478727 -0.08804083 -0.13151598 -0.11528206 -0.052824497 0.009268761 0.47040272 0.6413121 1.0746493 4.9823422 8.678045 13.593634 20.262 21.815426 21.172058 20.43236 19.885853 16.36575 12.098252 3.3150992 -5.064054 -6.9834533 -6.6687145 -15.788925 -20.285482 -20.217066 -18.940691 -21.80251 -21.875147 -16.822416 -15.196569 -9.0906105 -5.5894156 -0.16021538 3.0732703 15.721373 9.801195 6.5344343 6.0833793 -3.250875 -2.5377355 -1.3291662 0.24181876 1.205348 1.8727856 -6.175453 -6.3966045 0.6776147 -6.419468 6.2233357 4.3690653 -1.6630251 0.93905365 4.2524257 0.87532806 1.914398 4.70936 1.4000946 1.0359355 2.686981 0.77963364 1.1544912 2.2916982 1.2619547 

LinearAcc_Y
-0.02227977 -0.01736939 -0.08403309 -0.056335203 -0.1671341 -0.09219356 -0.017714165 -0.02421707 -0.04953049 -0.04785926 -0.06944741 -0.03643194 -0.0036938787 -0.08575063 -0.25838786 -0.02772057 -0.036310762 -0.018909842 -0.13602978 -0.058702834 -0.15308985 -0.013981804 -0.05845228 -0.0676973 -0.13071828 -0.12687767 -0.080237284 0.013807565 -0.12888044 -0.15101829 -0.045788407 0.08073419 -0.19123283 -0.05401961 0.18325366 0.12578626 -0.06951404 -0.16271742 -0.16615319 -0.161924 0.012064822 0.015420675 0.015900843 -0.07358621 -0.012622356 0.009601109 0.031530153 0.008156527 -0.037434287 0.13987656 -0.018824928 -0.007417936 -0.039868217 -0.0874463 -0.19024351 -0.026463337 -0.069536656 -0.17818111 -0.07425408 -0.12036938 -0.16596018 -0.037288338 -0.093111485 -0.06448935 0.06847584 -0.05600361 -0.16069129 0.05368708 -0.026283108 -0.035745863 -0.06340434 -0.06576808 0.12301476 -0.06592946 -0.17154458 -0.25923154 -0.3362777 -0.2963868 -0.03245394 -0.4408935 -0.8412144 0.78988653 1.3155874 1.501615 2.4579957 0.51945025 0.327853 -0.1761648 -1.0764296 -5.6466866 -11.314612 -24.12363 -27.452847 -27.143444 -21.882898 -21.183601 -19.268719 -16.020525 -14.224732 -17.95985 -18.073914 -21.131044 -25.450455 -28.599762 -22.928085 -15.202772 -10.843319 1.4230814 -5.4253473 -11.649004 -16.724407 -30.98621 -34.509933 -36.6086 -37.395386 -37.392567 -37.078102 -27.732964 -17.917858 -8.147513 -7.160267 0.18203449 0.3517418 -1.8247352 -0.16104412 1.6546392 0.27413654 1.6692581 2.9232721 1.4277229 0.9367647 2.0937004 1.1028852 1.1648722 1.6393747 0.71517944 

LinearAcc_Z
-1.3509064 -1.2947702 -1.1976557 -1.031764 -1.2213717 -1.2076979 -1.1340942 -1.1198959 -1.3759613 -1.0031958 -0.88097477 -0.90518665 -1.0549574 -1.0101566 -1.0235023 -0.9686289 -0.8910723 -0.9738445 -0.671196 -0.5147257 -0.6570282 -0.65514755 -0.56570435 -0.52956295 -0.5210295 -0.46460342 -0.45932198 -0.32318306 -0.42479324 -0.30571365 -0.2795992 -0.11658573 -0.20217419 -0.31742573 -0.11400032 -0.20229721 -0.5339756 -0.3344612 -0.153512 -0.12945747 -0.17487621 -0.12879944 -0.14523315 -0.26482964 -0.20455933 -0.1457243 -0.1857462 -0.068823814 -0.19571209 -0.028589249 -0.0053129196 0.17734146 -0.02895546 -0.007088661 -0.2788067 -0.14471817 -0.20284748 -0.1986885 -0.12487602 -0.10985279 -0.39382744 -0.11084747 0.0062475204 -0.02094841 -0.20761776 -0.1279335 -0.040228844 -0.058044434 -0.19535255 -0.13281631 -0.28738594 -0.23888588 -0.13225651 -0.43352652 -0.38184643 -0.5163374 -0.6812959 -0.35879803 -0.9249897 -0.8761587 -0.9622326 -1.9063869 -3.1639915 -7.5576315 -8.358687 -9.816204 -8.920654 -0.6013398 6.871836 14.406479 15.546965 17.879696 18.576075 17.009277 11.132901 8.839558 8.765212 10.514912 8.928649 7.6438427 15.690675 13.953725 12.9786 19.57198 21.705338 21.629196 20.434525 18.452856 15.803618 12.458168 10.729245 10.977293 12.84476 7.9039507 2.6245427 -17.043526 -18.510153 -4.9240165 -12.974773 -1.0998383 -3.8713527 -0.072855234 2.0837176 -2.053846 0.83421326 3.2531917 4.2027445 4.4416428 4.8803225 3.6632152 5.152034 5.3902545 3.0110908 4.0879307 5.08817 3.6707578 

Gyro_X
-0.031977255 0.024515893 -0.010659085 -0.07141587 -0.012790902 0.10445904 0.15775445 0.03410907 0.018120443 0.02771362 0.031977255 0.025581803 0.033043165 0.044768155 0.058624968 0.009593176 -0.041570432 0.0074613593 0.07141587 0.09593176 -0.015988627 -0.020252263 0.08633859 0.103393115 0.06502042 -0.059690874 0.009593176 0.018120443 0.041570432 -0.06608633 -0.057559058 0.033043165 -0.038372703 -0.04583407 -0.031977255 0.011724994 0.07781132 0.015988627 -0.037306797 -0.019186351 0.0149227185 -0.028779529 -0.06715223 -0.002131817 0.033043165 -0.012790902 -0.0628886 -0.041570432 0.059690874 0.038372703 -0.0149227185 -0.04370225 0.020252263 0.09060222 0.026647713 0.002131817 -0.01385681 0.015988627 0.02131817 0.011724994 0.0149227185 -0.009593176 0.009593176 0.08420677 0.036240887 -0.036240887 0.0053295423 0.019186351 0.026647713 -0.01385681 0.0 -0.09060222 0.04796588 -0.039438613 -0.07141587 -0.07141587 -0.008527268 -0.004263634 -0.038372703 -0.37306795 -0.44661567 0.37200204 -0.26008168 -1.5466332 -1.1117425 -0.9561199 -1.9879192 -2.364185 -2.4132168 -0.6384792 0.31870663 -0.14176582 1.0627108 0.9955585 0.26754302 1.5413036 1.7949898 0.010659085 -0.28672937 0.71309274 0.35707933 0.38052937 0.6320837 0.7642564 3.6134298 4.954343 7.8866563 10.4970665 16.480011 17.430801 14.739384 12.861253 11.34553 9.811688 4.9447494 3.480191 2.7852187 3.2073188 2.6061463 -0.008527268 1.0808313 0.43275884 -0.9689108 -0.5670633 -0.4924497 -0.12151357 -0.39545205 -0.62675416 -0.6928405 -0.15562265 -0.050097696 -0.1897317 -0.026647713 0.07141587 0.09806357 -0.12151357 

Gyro_Y
-0.117249936 -0.10872267 0.025581803 0.09060222 -0.09166814 -0.116184026 -0.0628886 0.012790902 -0.0756795 -0.08953631 -0.004263634 0.0031977254 0.002131817 -0.025581803 -0.019186351 0.037306797 -0.03410907 -0.04263634 -0.020252263 -0.011724994 -0.015988627 -0.006395451 -0.0149227185 -0.04263634 -0.061822694 -0.008527268 -0.0053295423 -0.008527268 -0.079943135 -0.025581803 -0.026647713 -0.060756784 -0.012790902 0.002131817 0.09593176 0.12257948 -0.036240887 -0.041570432 -0.041570432 -0.076745406 -0.09379995 -0.06502042 0.01385681 -0.031977255 -0.0628886 -0.083140865 -0.015988627 0.006395451 -0.12684311 -0.14283174 -0.13643628 -0.015988627 -0.049031787 -0.023449987 -0.024515893 -0.0031977254 0.008527268 0.018120443 0.019186351 0.020252263 -0.050097696 0.018120443 0.049031787 -0.050097696 -0.050097696 0.025581803 0.0074613593 0.024515893 -0.011724994 -0.0010659085 -0.006395451 0.0031977254 -0.015988627 -0.06395451 0.0010659085 0.0 -0.1129863 -0.14176582 -0.13110675 0.20039079 0.21957715 -0.5830519 -0.48179063 -0.49458155 -1.8482853 -2.9109962 -3.245691 -2.9973347 -2.957896 -4.6100545 -5.3188834 -3.6699228 -3.8266115 -3.8180842 -3.2787344 -3.9651794 -4.0824294 -1.2066084 -0.9358676 -1.3803514 0.42956108 0.86658365 1.2375197 1.6340377 -0.8260791 1.6478944 1.6638831 1.5839401 1.9005148 1.1565106 2.970687 2.178717 0.68004966 1.2833538 1.2556403 0.12684311 -0.43275884 -0.7695859 -2.249067 0.9475927 -0.78664047 -0.15242493 0.72162 -0.022384077 -0.018120443 -0.27287257 -0.20572034 0.041570432 0.2920589 -0.20252262 -0.20785217 0.14283174 -0.22490668 -0.22170895 -0.051163606 0.07461359 

Gyro_Z
0.037306797 0.0010659085 -0.015988627 -0.018120443 0.07354769 0.09166814 0.061822694 0.022384077 0.031977255 0.041570432 0.044768155 0.025581803 0.009593176 0.015988627 0.0628886 -0.0053295423 -0.008527268 0.0031977254 0.031977255 0.029845437 0.02771362 0.0149227185 0.020252263 0.019186351 0.030911347 0.026647713 0.011724994 -0.0031977254 0.04583407 0.05542724 0.029845437 0.0 0.026647713 -0.006395451 -0.0628886 -0.0756795 -0.025581803 -0.006395451 0.039438613 0.04796588 0.017054535 -0.0010659085 -0.0031977254 0.019186351 0.015988627 0.01385681 0.004263634 0.006395451 0.031977255 0.002131817 0.009593176 -0.011724994 0.0010659085 0.020252263 0.008527268 -0.019186351 -0.025581803 -0.01385681 -0.0053295423 0.0074613593 0.022384077 0.010659085 0.020252263 0.037306797 0.025581803 0.029845437 0.04370225 0.0 0.004263634 0.002131817 -0.011724994 0.008527268 -0.0010659085 0.022384077 0.078877226 0.09060222 0.11085448 0.20891808 0.20678623 0.22170895 0.4274293 0.4348907 0.3911884 -0.14283174 -0.9657131 -1.9825897 -4.4714866 -6.127908 -7.507193 -7.0531163 -6.5905123 -6.128974 -4.4586954 -3.4236982 -2.5134122 -0.6789837 0.8953631 1.2119379 1.8855921 3.7296138 4.89252 6.1534896 7.171432 8.965356 10.654821 8.677562 6.983833 4.6750746 1.6681468 -1.3942082 -4.028068 -3.5111024 -4.649493 -5.4020243 -3.0335755 -2.5251372 -2.5240712 -0.09060222 0.7205542 -0.10126131 1.2215312 0.14602946 -0.19612715 0.46899974 0.36240888 0.06395451 0.5297565 0.41677022 -0.16095218 0.004263634 0.151359 -0.09486585 0.05222952 0.022384077 -0.20039079 -0.10019539 

Gravity_X
-0.5744118 -0.53256476 -0.51244605 -0.36868426 0.070383444 0.5125773 0.91687095 1.2705998 1.390759 1.5206591 1.540776 1.740156 2.0265489 2.2886827 2.5316992 2.7535677 2.9466655 3.1460395 3.3126566 3.4561198 3.584304 3.7079785 3.8190413 3.9244666 4.0257998 4.105205 4.1695633 4.2204523 4.2674403 4.319791 4.357143 4.4032574 4.4377294 4.484465 4.492896 4.4716535 4.466654 4.4855833 4.519481 4.547075 4.5881386 4.6228848 4.644139 4.65379 4.672371 4.702056 4.730067 4.7397394 4.7576942 4.8013115 4.847138 4.874556 4.883885 4.8968987 4.9092975 4.9209166 4.9271226 4.930509 4.928374 4.9255576 4.935099 4.949358 4.9409957 4.937481 4.955892 4.963989 4.9579234 4.958926 4.9590826 4.970369 4.981055 4.989243 4.999228 5.0126762 5.025467 5.029262 5.0408635 5.078325 5.117442 5.13861 5.0738277 5.091894 5.2344017 5.3327084 5.5564084 6.06831 6.816315 7.5147614 7.956821 8.144281 8.111909 6.5475917 5.361636 4.318984 3.4685934 2.807738 2.5958967 2.7145064 2.9725668 4.552233 5.837102 7.2699137 8.578391 9.439876 8.556367 7.198376 5.818486 4.782542 4.2252665 3.8255765 2.7119079 1.7479786 0.30913112 -1.090479 -1.9447305 -2.684043 -3.135052 -3.1099238 -3.273458 -3.079458 -2.8849187 -2.8775535 -2.8138936 -2.6871488 -2.6487913 -2.612952 -2.4859316 -2.4288182 -2.462377 -2.4556775 -2.4472325 -2.4613209 -2.4629424 -2.4956584 -2.5486574 -2.559889 

Gravity_Y
0.12153043 0.12598196 0.13041218 0.11981322 0.0969834 0.09967065 0.13564898 0.16042732 0.16636539 0.16171964 0.17313407 0.17501362 0.1833038 0.18742135 0.18834424 0.19215623 0.18912429 0.18048745 0.1748815 0.18616226 0.18403678 0.1726635 0.17080253 0.18550088 0.1961599 0.18622771 0.1692872 0.16938026 0.17321226 0.16426387 0.1370969 0.12825724 0.13171959 0.10065116 0.09401098 0.10127399 0.11812662 0.13211137 0.118584655 0.09997311 0.09112774 0.08999488 0.07839208 0.06428876 0.06075347 0.065605484 0.05809149 0.043991335 0.039213516 0.053969726 0.056350995 0.051231496 0.048309095 0.057596996 0.07197291 0.07564799 0.075558506 0.07385867 0.07787549 0.08150783 0.08172428 0.07511736 0.07332602 0.07376149 0.09104831 0.09057698 0.077576935 0.079938106 0.08551983 0.08712063 0.08152899 0.07073205 0.05063487 0.054736115 0.035110638 -0.0036039061 -0.027888315 -0.06594368 -0.0965306 -0.14650191 -0.30847228 -0.41597027 -0.39155075 -0.6448931 -0.9051392 -0.95207983 -0.6698413 -0.062308863 1.0015718 2.5194147 4.1593423 7.145732 8.176057 8.80407 9.14882 9.32949 9.255961 9.099161 9.0253935 8.251188 7.4085546 6.0538216 4.1624136 -1.5833461 -4.4905305 -6.6542344 -7.648796 -6.965729 -3.794253 0.7620295 4.697325 7.641665 9.264293 9.701002 9.599926 9.334608 9.050194 8.846968 8.663731 8.668577 8.65461 8.674168 8.765523 8.862796 8.907501 8.947102 9.026288 9.095367 9.126206 9.141013 9.153754 9.159821 9.164708 9.152261 9.137335 9.143324 

Gravity_Z
9.789059 9.791368 9.792382 9.798983 9.805917 9.792738 9.762753 9.722667 9.706108 9.686683 9.683304 9.649438 9.59322 9.534 9.47235 9.410171 9.351565 9.286562 9.228549 9.175563 9.126296 9.076975 9.030845 8.985239 8.940068 8.9041 8.874483 8.850394 8.827761 8.802432 8.78447 8.761579 8.744119 8.720654 8.716391 8.727222 8.729571 8.719661 8.702333 8.688179 8.666663 8.648193 8.6369095 8.631829 8.621813 8.605623 8.590313 8.585065 8.5751505 8.550722 8.524814 8.509198 8.503867 8.496318 8.489054 8.482288 8.478688 8.476734 8.477939 8.479541 8.4739895 8.46573 8.470629 8.472672 8.461748 8.457007 8.460696 8.460086 8.459939 8.453296 8.447061 8.442326 8.43656 8.428552 8.421036 8.418839 8.411855 8.389078 8.364979 8.351263 8.386387 8.370781 8.283606 8.204676 8.029783 7.6445756 7.0185146 6.300386 5.64413 4.847018 3.6148517 1.4959756 0.75850976 -0.071413085 -0.6620744 -1.1169544 -1.9387816 -2.450937 -2.4241502 -2.7139316 -2.6855009 -2.5826333 -2.2925742 -2.1335723 -1.6715496 -0.27368894 1.9523113 4.9775767 7.9950695 8.99748 8.170133 5.8923607 3.2011995 0.93370295 -0.47939327 -1.3532792 -2.1061435 -2.8687775 -3.2240677 -3.397513 -3.5979671 -3.5565276 -3.3790529 -3.2249746 -3.1322074 -3.0483146 -2.918332 -2.7469049 -2.6114058 -2.5655243 -2.5278878 -2.491983 -2.472331 -2.4855924 -2.486731 -2.4529517 

Position_X
0.10844584 0.10912898 0.10981643 0.11050821 0.11120435 0.11190487 0.1126098 0.11331918 0.11403303 0.11475137 0.11547423 0.116201654 0.11693365 0.11767027 0.11841152 0.11915744 0.119908065 0.12066342 0.12142353 0.12218842 0.12295814 0.1237327 0.12451214 0.1252965 0.12608579 0.12688006 0.12767933 0.12848364 0.12929301 0.13010748 0.13092707 0.13175184 0.1325818 0.13341698 0.13425744 0.13510318 0.13595425 0.13681068 0.1376725 0.13853976 0.13941248 0.14029069 0.14117445 0.14206377 0.14295869 0.14385924 0.14476547 0.1456774 0.14659508 0.14751855 0.14844783 0.14938296 0.15032399 0.15127094 0.15222386 0.15318277 0.15414774 0.15511878 0.15609594 0.15707925 0.15806875 0.15906449 0.1600665 0.16107483 0.16208951 0.16311058 0.16413808 0.16517206 0.16621254 0.16725957 0.16831322 0.1693735 0.17044045 0.17151412 0.17259456 0.1736818 0.1747759 0.17587689 0.1769848 0.17817768 0.17950079 0.18135132 0.1841135 0.18835056 0.19474259 0.20349081 0.21452245 0.22751847 0.24213193 0.25755808 0.27303657 0.28711805 0.2988294 0.30801448 0.3151717 0.31981468 0.32176226 0.3210592 0.31797135 0.3122707 0.3034594 0.2919594 0.2779376 0.26156318 0.24327587 0.22371647 0.20334414 0.18313564 0.16310067 0.14354718 0.124874905 0.107029356 0.0901978 0.07460411 0.060430482 0.04790711 0.037010305 0.026532996 0.016230471 0.0062864106 -0.0039553093 -0.0136260325 -0.022924582 -0.02148742 -0.020051105 -0.018615581 -0.017180791 -0.01574668 -0.014313188 -0.012880261 -0.011447842 -0.010015874 -0.008584302 -0.0071530677 -0.0057221157 -0.0042913896 

Position_Y
0.34063512 0.34278092 0.34494022 0.34711316 0.34929976 0.35150015 0.35371438 0.35594258 0.3581848 0.36044115 0.36271173 0.3649966 0.36729586 0.36960962 0.37193793 0.37428093 0.37663868 0.37901127 0.38139883 0.3838014 0.38621914 0.3886521 0.39110038 0.39356408 0.3960433 0.39853814 0.4010487 0.40357506 0.40611735 0.40867564 0.41125005 0.4138407 0.41644764 0.41907102 0.42171094 0.42436746 0.42704073 0.42973083 0.43243787 0.43516198 0.43790326 0.4406618 0.4434377 0.4462311 0.44904208 0.45187077 0.4547173 0.45758176 0.46046424 0.4633649 0.46628383 0.46922114 0.47217697 0.4751514 0.4781446 0.48115662 0.4841876 0.4872377 0.490307 0.49339566 0.49650377 0.49963143 0.5027788 0.50594604 0.5091332 0.5123404 0.5155679 0.51881564 0.5220839 0.52537274 0.52868223 0.53201264 0.53536403 0.53873646 0.54213023 0.54554534 0.5489819 0.55244017 0.55592024 0.5593801 0.5627808 0.56629795 0.56999797 0.57390416 0.5781037 0.5823528 0.58652496 0.5904916 0.5941024 0.596973 0.5986375 0.59822184 0.59578174 0.59145665 0.58566636 0.5788291 0.5712649 0.56326187 0.5548653 0.54571664 0.5358081 0.52453053 0.51126033 0.49554515 0.47778484 0.4586499 0.43847346 0.41856742 0.3979678 0.37597555 0.35217735 0.32533008 0.29521275 0.26226166 0.22699358 0.19115342 0.15499376 0.11785701 0.080992244 0.04385529 0.0066912808 -0.030410893 -0.06764802 -0.06340711 -0.059168696 -0.054932617 -0.050698705 -0.04646679 -0.042236708 -0.03800829 -0.033781372 -0.029555788 -0.025331369 -0.021107947 -0.01688536 -0.012663437 

Position_Z
-0.07368894 -0.07415314 -0.07462026 -0.07509033 -0.07556335 -0.07603935 -0.07651836 -0.07700038 -0.077485435 -0.077973545 -0.07846473 -0.07895902 -0.07945641 -0.07995694 -0.08046062 -0.08096748 -0.08147752 -0.081990786 -0.082507275 -0.08302703 -0.08355004 -0.08407636 -0.08460599 -0.08513896 -0.085675284 -0.08621499 -0.08675809 -0.08730462 -0.08785459 -0.08840802 -0.08896494 -0.089525364 -0.09008932 -0.09065683 -0.09122792 -0.0918026 -0.0923809 -0.092962846 -0.09354846 -0.09413776 -0.09473077 -0.09532752 -0.09592803 -0.096532315 -0.09714042 -0.09775234 -0.09836812 -0.09898779 -0.09961135 -0.100238845 -0.10087029 -0.10150571 -0.102145135 -0.10278859 -0.1034361 -0.10408769 -0.10474338 -0.1054032 -0.10606718 -0.10673534 -0.10740771 -0.10808431 -0.108765185 -0.10945034 -0.11013981 -0.11083363 -0.11153182 -0.1122344 -0.11294141 -0.11365288 -0.11436882 -0.115089275 -0.11581427 -0.11654384 -0.11727799 -0.11801677 -0.11876021 -0.119508326 -0.12026116 -0.12109541 -0.122012615 -0.12304039 -0.12423617 -0.12594084 -0.12807408 -0.13066988 -0.13357422 -0.13593523 -0.13699491 -0.13609922 -0.13329907 -0.1288555 -0.12324278 -0.116819814 -0.1100924 -0.10385202 -0.09845279 -0.093730845 -0.08971094 -0.08672995 -0.084140524 -0.0816818 -0.07921682 -0.07567178 -0.07060683 -0.06369927 -0.05488426 -0.043661285 -0.030645391 -0.01656904 -0.0020071373 0.011629778 0.023915559 0.034098785 0.041708604 0.04559869 0.04568755 0.043099836 0.03823313 0.032677513 0.026130669 0.019825047 0.013800799 0.012935615 0.012070941 0.011206742 0.010342986 0.009479638 0.008616664 0.0077540297 0.006891701 0.006029644 0.0051678247 0.0043062093 0.0034447636 0.002583454 


